[
	{
		"row" : 1,
		"rt" : 12511,
		"stimulus" : 0,
		"button_pressed" : 0,
		"trial_type" : "html-button-response",
		"trial_index" : 0,
		"time_elapsed" : 12514,
		"subject" : "5f1b5383718fb9174851cf78",
		"responses" : null,
		"info" : null
	},
	{
		"row" : 2,
		"rt" : 39156,
		"stimulus" : null,
		"button_pressed" : null,
		"trial_type" : "survey-text",
		"trial_index" : 1,
		"time_elapsed" : 51681,
		"subject" : "5f1b5383718fb9174851cf78",
		"responses" : "{\"Q0\":\"175\"}",
		"info" : 1
	},
	{
		"row" : 3,
		"rt" : 17131,
		"stimulus" : null,
		"button_pressed" : null,
		"trial_type" : "survey-text",
		"trial_index" : 2,
		"time_elapsed" : 69318,
		"subject" : "5f1b5383718fb9174851cf78",
		"responses" : "{\"Q0\":\"150\"}",
		"info" : 3
	},
	{
		"row" : 4,
		"rt" : 16319,
		"stimulus" : null,
		"button_pressed" : null,
		"trial_type" : "survey-text",
		"trial_index" : 3,
		"time_elapsed" : 86141,
		"subject" : "5f1b5383718fb9174851cf78",
		"responses" : "{\"Q0\":\"120\"}",
		"info" : 10
	},
	{
		"row" : 5,
		"rt" : 7185,
		"stimulus" : 0,
		"button_pressed" : 0,
		"trial_type" : "html-button-response",
		"trial_index" : 0,
		"time_elapsed" : 7225,
		"subject" : "5bfee18592eb3b0001a2fe23",
		"responses" : null,
		"info" : null
	},
	{
		"row" : 6,
		"rt" : 79369,
		"stimulus" : null,
		"button_pressed" : null,
		"trial_type" : "survey-text",
		"trial_index" : 1,
		"time_elapsed" : 86701,
		"subject" : "5bfee18592eb3b0001a2fe23",
		"responses" : "{\"Q0\":\"130\"}",
		"info" : 1
	},
	{
		"row" : 7,
		"rt" : 19712,
		"stimulus" : null,
		"button_pressed" : null,
		"trial_type" : "survey-text",
		"trial_index" : 2,
		"time_elapsed" : 106923,
		"subject" : "5bfee18592eb3b0001a2fe23",
		"responses" : "{\"Q0\":\"140\"}",
		"info" : 3
	},
	{
		"row" : 8,
		"rt" : 47603,
		"stimulus" : null,
		"button_pressed" : null,
		"trial_type" : "survey-text",
		"trial_index" : 3,
		"time_elapsed" : 155038,
		"subject" : "5bfee18592eb3b0001a2fe23",
		"responses" : "{\"Q0\":\"130\"}",
		"info" : 10
	},
	{
		"row" : 9,
		"rt" : 4735,
		"stimulus" : 0,
		"button_pressed" : 0,
		"trial_type" : "html-button-response",
		"trial_index" : 0,
		"time_elapsed" : 4737,
		"subject" : "5bfe875ecfd0b5000174259e",
		"responses" : null,
		"info" : null
	},
	{
		"row" : 10,
		"rt" : 39594,
		"stimulus" : null,
		"button_pressed" : null,
		"trial_type" : "survey-text",
		"trial_index" : 1,
		"time_elapsed" : 44337,
		"subject" : "5bfe875ecfd0b5000174259e",
		"responses" : "{\"Q0\":\"300\"}",
		"info" : 1
	},
	{
		"row" : 11,
		"rt" : 11562,
		"stimulus" : null,
		"button_pressed" : null,
		"trial_type" : "survey-text",
		"trial_index" : 2,
		"time_elapsed" : 56402,
		"subject" : "5bfe875ecfd0b5000174259e",
		"responses" : "{\"Q0\":\"150\"}",
		"info" : 3
	},
	{
		"row" : 12,
		"rt" : 16019,
		"stimulus" : null,
		"button_pressed" : null,
		"trial_type" : "survey-text",
		"trial_index" : 3,
		"time_elapsed" : 72928,
		"subject" : "5bfe875ecfd0b5000174259e",
		"responses" : "{\"Q0\":\"110\"}",
		"info" : 10
	},
	{
		"row" : 13,
		"rt" : 15913.9,
		"stimulus" : 0,
		"button_pressed" : 0,
		"trial_type" : "html-button-response",
		"trial_index" : 0,
		"time_elapsed" : 15948,
		"subject" : "5ca7ca2ea5568f0015f74ecc",
		"responses" : null,
		"info" : null
	},
	{
		"row" : 14,
		"rt" : 38832.8,
		"stimulus" : null,
		"button_pressed" : null,
		"trial_type" : "survey-text",
		"trial_index" : 1,
		"time_elapsed" : 54789,
		"subject" : "5ca7ca2ea5568f0015f74ecc",
		"responses" : "{\"Q0\":\"500\"}",
		"info" : 1
	},
	{
		"row" : 15,
		"rt" : 13290.5,
		"stimulus" : null,
		"button_pressed" : null,
		"trial_type" : "survey-text",
		"trial_index" : 2,
		"time_elapsed" : 68584,
		"subject" : "5ca7ca2ea5568f0015f74ecc",
		"responses" : "{\"Q0\":\"150\"}",
		"info" : 3
	},
	{
		"row" : 16,
		"rt" : 13432.6,
		"stimulus" : null,
		"button_pressed" : null,
		"trial_type" : "survey-text",
		"trial_index" : 3,
		"time_elapsed" : 82521,
		"subject" : "5ca7ca2ea5568f0015f74ecc",
		"responses" : "{\"Q0\":\"115\"}",
		"info" : 10
	},
	{
		"row" : 17,
		"rt" : 13414.3,
		"stimulus" : 0,
		"button_pressed" : 0,
		"trial_type" : "html-button-response",
		"trial_index" : 0,
		"time_elapsed" : 13418,
		"subject" : "5cfe0c0b09897800014ff31b",
		"responses" : null,
		"info" : null
	},
	{
		"row" : 18,
		"rt" : 132547,
		"stimulus" : null,
		"button_pressed" : null,
		"trial_type" : "survey-text",
		"trial_index" : 1,
		"time_elapsed" : 145970,
		"subject" : "5cfe0c0b09897800014ff31b",
		"responses" : "{\"Q0\":\"200\"}",
		"info" : 1
	},
	{
		"row" : 19,
		"rt" : 43013.4,
		"stimulus" : null,
		"button_pressed" : null,
		"trial_type" : "survey-text",
		"trial_index" : 2,
		"time_elapsed" : 189493,
		"subject" : "5cfe0c0b09897800014ff31b",
		"responses" : "{\"Q0\":\"150\"}",
		"info" : 3
	},
	{
		"row" : 20,
		"rt" : 19811.8,
		"stimulus" : null,
		"button_pressed" : null,
		"trial_type" : "survey-text",
		"trial_index" : 3,
		"time_elapsed" : 209814,
		"subject" : "5cfe0c0b09897800014ff31b",
		"responses" : "{\"Q0\":\"105\"}",
		"info" : 10
	},
	{
		"row" : 21,
		"rt" : 2092,
		"stimulus" : 0,
		"button_pressed" : 0,
		"trial_type" : "html-button-response",
		"trial_index" : 0,
		"time_elapsed" : 2099,
		"subject" : "5ec2faa3f115e71420091ccf",
		"responses" : null,
		"info" : null
	},
	{
		"row" : 22,
		"rt" : 57500,
		"stimulus" : null,
		"button_pressed" : null,
		"trial_type" : "survey-text",
		"trial_index" : 1,
		"time_elapsed" : 59650,
		"subject" : "5ec2faa3f115e71420091ccf",
		"responses" : "{\"Q0\":\"102\"}",
		"info" : 1
	},
	{
		"row" : 23,
		"rt" : 55170,
		"stimulus" : null,
		"button_pressed" : null,
		"trial_type" : "survey-text",
		"trial_index" : 2,
		"time_elapsed" : 115334,
		"subject" : "5ec2faa3f115e71420091ccf",
		"responses" : "{\"Q0\":\"203\"}",
		"info" : 3
	},
	{
		"row" : 24,
		"rt" : 78326,
		"stimulus" : null,
		"button_pressed" : null,
		"trial_type" : "survey-text",
		"trial_index" : 3,
		"time_elapsed" : 194172,
		"subject" : "5ec2faa3f115e71420091ccf",
		"responses" : "{\"Q0\":\"470\"}",
		"info" : 10
	},
	{
		"row" : 25,
		"rt" : 23886.2,
		"stimulus" : 0,
		"button_pressed" : 0,
		"trial_type" : "html-button-response",
		"trial_index" : 0,
		"time_elapsed" : 23912,
		"subject" : "5eb32d8f960a4f10eef4c618",
		"responses" : null,
		"info" : null
	},
	{
		"row" : 26,
		"rt" : 66380.5,
		"stimulus" : null,
		"button_pressed" : null,
		"trial_type" : "survey-text",
		"trial_index" : 1,
		"time_elapsed" : 90297,
		"subject" : "5eb32d8f960a4f10eef4c618",
		"responses" : "{\"Q0\":\"150\"}",
		"info" : 1
	},
	{
		"row" : 27,
		"rt" : 28373.1,
		"stimulus" : null,
		"button_pressed" : null,
		"trial_type" : "survey-text",
		"trial_index" : 2,
		"time_elapsed" : 119175,
		"subject" : "5eb32d8f960a4f10eef4c618",
		"responses" : "{\"Q0\":\"150\"}",
		"info" : 3
	},
	{
		"row" : 28,
		"rt" : 14766.7,
		"stimulus" : null,
		"button_pressed" : null,
		"trial_type" : "survey-text",
		"trial_index" : 3,
		"time_elapsed" : 134445,
		"subject" : "5eb32d8f960a4f10eef4c618",
		"responses" : "{\"Q0\":\"150\"}",
		"info" : 10
	},
	{
		"row" : 29,
		"rt" : 4211.98,
		"stimulus" : 0,
		"button_pressed" : 0,
		"trial_type" : "html-button-response",
		"trial_index" : 0,
		"time_elapsed" : 4217,
		"subject" : "5f0cd3a6180f41524ef7bfcb",
		"responses" : null,
		"info" : null
	},
	{
		"row" : 30,
		"rt" : 109889,
		"stimulus" : null,
		"button_pressed" : null,
		"trial_type" : "survey-text",
		"trial_index" : 1,
		"time_elapsed" : 114121,
		"subject" : "5f0cd3a6180f41524ef7bfcb",
		"responses" : "{\"Q0\":\"200\"}",
		"info" : 1
	},
	{
		"row" : 31,
		"rt" : 22351.8,
		"stimulus" : null,
		"button_pressed" : null,
		"trial_type" : "survey-text",
		"trial_index" : 2,
		"time_elapsed" : 136984,
		"subject" : "5f0cd3a6180f41524ef7bfcb",
		"responses" : "{\"Q0\":\"150\"}",
		"info" : 3
	},
	{
		"row" : 32,
		"rt" : 29224.4,
		"stimulus" : null,
		"button_pressed" : null,
		"trial_type" : "survey-text",
		"trial_index" : 3,
		"time_elapsed" : 166721,
		"subject" : "5f0cd3a6180f41524ef7bfcb",
		"responses" : "{\"Q0\":\"110\"}",
		"info" : 10
	},
	{
		"row" : 33,
		"rt" : 46765.1,
		"stimulus" : 0,
		"button_pressed" : 0,
		"trial_type" : "html-button-response",
		"trial_index" : 0,
		"time_elapsed" : 46775,
		"subject" : "5e8f47da1bb68e05febc0cf4",
		"responses" : null,
		"info" : null
	},
	{
		"row" : 34,
		"rt" : 176966,
		"stimulus" : null,
		"button_pressed" : null,
		"trial_type" : "survey-text",
		"trial_index" : 1,
		"time_elapsed" : 223766,
		"subject" : "5e8f47da1bb68e05febc0cf4",
		"responses" : "{\"Q0\":\"150\"}",
		"info" : 1
	},
	{
		"row" : 35,
		"rt" : 80643.3,
		"stimulus" : null,
		"button_pressed" : null,
		"trial_type" : "survey-text",
		"trial_index" : 2,
		"time_elapsed" : 304925,
		"subject" : "5e8f47da1bb68e05febc0cf4",
		"responses" : "{\"Q0\":\"110\"}",
		"info" : 3
	},
	{
		"row" : 36,
		"rt" : 23619.2,
		"stimulus" : null,
		"button_pressed" : null,
		"trial_type" : "survey-text",
		"trial_index" : 3,
		"time_elapsed" : 329060,
		"subject" : "5e8f47da1bb68e05febc0cf4",
		"responses" : "{\"Q0\":\"105\"}",
		"info" : 10
	},
	{
		"row" : 37,
		"rt" : 14301.4,
		"stimulus" : 0,
		"button_pressed" : 0,
		"trial_type" : "html-button-response",
		"trial_index" : 0,
		"time_elapsed" : 14324,
		"subject" : "5ba785da1db9be000152c608",
		"responses" : null,
		"info" : null
	},
	{
		"row" : 38,
		"rt" : 44162.3,
		"stimulus" : null,
		"button_pressed" : null,
		"trial_type" : "survey-text",
		"trial_index" : 1,
		"time_elapsed" : 58490,
		"subject" : "5ba785da1db9be000152c608",
		"responses" : "{\"Q0\":\"150\"}",
		"info" : 1
	},
	{
		"row" : 39,
		"rt" : 29475.9,
		"stimulus" : null,
		"button_pressed" : null,
		"trial_type" : "survey-text",
		"trial_index" : 2,
		"time_elapsed" : 88479,
		"subject" : "5ba785da1db9be000152c608",
		"responses" : "{\"Q0\":\"110\"}",
		"info" : 3
	},
	{
		"row" : 40,
		"rt" : 15474.8,
		"stimulus" : null,
		"button_pressed" : null,
		"trial_type" : "survey-text",
		"trial_index" : 3,
		"time_elapsed" : 104464,
		"subject" : "5ba785da1db9be000152c608",
		"responses" : "{\"Q0\":\"110\"}",
		"info" : 10
	},
	{
		"row" : 41,
		"rt" : 11056,
		"stimulus" : 0,
		"button_pressed" : 0,
		"trial_type" : "html-button-response",
		"trial_index" : 0,
		"time_elapsed" : 11062,
		"subject" : "5ded597631a7e041af9f61fa",
		"responses" : null,
		"info" : null
	},
	{
		"row" : 42,
		"rt" : 61729.7,
		"stimulus" : null,
		"button_pressed" : null,
		"trial_type" : "survey-text",
		"trial_index" : 1,
		"time_elapsed" : 72797,
		"subject" : "5ded597631a7e041af9f61fa",
		"responses" : "{\"Q0\":\"250\"}",
		"info" : 1
	},
	{
		"row" : 43,
		"rt" : 14922,
		"stimulus" : null,
		"button_pressed" : null,
		"trial_type" : "survey-text",
		"trial_index" : 2,
		"time_elapsed" : 88234,
		"subject" : "5ded597631a7e041af9f61fa",
		"responses" : "{\"Q0\":\"150\"}",
		"info" : 3
	},
	{
		"row" : 44,
		"rt" : 23811.2,
		"stimulus" : null,
		"button_pressed" : null,
		"trial_type" : "survey-text",
		"trial_index" : 3,
		"time_elapsed" : 112557,
		"subject" : "5ded597631a7e041af9f61fa",
		"responses" : "{\"Q0\":\"120\"}",
		"info" : 10
	},
	{
		"row" : 45,
		"rt" : 18585.4,
		"stimulus" : 0,
		"button_pressed" : 0,
		"trial_type" : "html-button-response",
		"trial_index" : 0,
		"time_elapsed" : 18590,
		"subject" : "5f297ce98993020866ce4d16",
		"responses" : null,
		"info" : null
	},
	{
		"row" : 46,
		"rt" : 51651.6,
		"stimulus" : null,
		"button_pressed" : null,
		"trial_type" : "survey-text",
		"trial_index" : 1,
		"time_elapsed" : 70245,
		"subject" : "5f297ce98993020866ce4d16",
		"responses" : "{\"Q0\":\"500\"}",
		"info" : 1
	},
	{
		"row" : 47,
		"rt" : 18992.8,
		"stimulus" : null,
		"button_pressed" : null,
		"trial_type" : "survey-text",
		"trial_index" : 2,
		"time_elapsed" : 89741,
		"subject" : "5f297ce98993020866ce4d16",
		"responses" : "{\"Q0\":\"250\"}",
		"info" : 3
	},
	{
		"row" : 48,
		"rt" : 14464.6,
		"stimulus" : null,
		"button_pressed" : null,
		"trial_type" : "survey-text",
		"trial_index" : 3,
		"time_elapsed" : 104708,
		"subject" : "5f297ce98993020866ce4d16",
		"responses" : "{\"Q0\":\"150\"}",
		"info" : 10
	},
	{
		"row" : 49,
		"rt" : 6575.19,
		"stimulus" : 0,
		"button_pressed" : 0,
		"trial_type" : "html-button-response",
		"trial_index" : 0,
		"time_elapsed" : 6579,
		"subject" : "5e2b218ea9cd9702c2c163fb",
		"responses" : null,
		"info" : null
	},
	{
		"row" : 50,
		"rt" : 36265.4,
		"stimulus" : null,
		"button_pressed" : null,
		"trial_type" : "survey-text",
		"trial_index" : 1,
		"time_elapsed" : 42847,
		"subject" : "5e2b218ea9cd9702c2c163fb",
		"responses" : "{\"Q0\":\"150\"}",
		"info" : 1
	},
	{
		"row" : 51,
		"rt" : 18631.5,
		"stimulus" : null,
		"button_pressed" : null,
		"trial_type" : "survey-text",
		"trial_index" : 2,
		"time_elapsed" : 61981,
		"subject" : "5e2b218ea9cd9702c2c163fb",
		"responses" : "{\"Q0\":\"150\"}",
		"info" : 3
	},
	{
		"row" : 52,
		"rt" : 10797.4,
		"stimulus" : null,
		"button_pressed" : null,
		"trial_type" : "survey-text",
		"trial_index" : 3,
		"time_elapsed" : 73280,
		"subject" : "5e2b218ea9cd9702c2c163fb",
		"responses" : "{\"Q0\":\"125\"}",
		"info" : 10
	},
	{
		"row" : 53,
		"rt" : 4264.04,
		"stimulus" : 0,
		"button_pressed" : 0,
		"trial_type" : "html-button-response",
		"trial_index" : 0,
		"time_elapsed" : 4267,
		"subject" : "5ed67a8273beeb09f3cd44fc",
		"responses" : null,
		"info" : null
	},
	{
		"row" : 54,
		"rt" : 53828.7,
		"stimulus" : null,
		"button_pressed" : null,
		"trial_type" : "survey-text",
		"trial_index" : 1,
		"time_elapsed" : 58098,
		"subject" : "5ed67a8273beeb09f3cd44fc",
		"responses" : "{\"Q0\":\"150\"}",
		"info" : 1
	},
	{
		"row" : 55,
		"rt" : 17992.9,
		"stimulus" : null,
		"button_pressed" : null,
		"trial_type" : "survey-text",
		"trial_index" : 2,
		"time_elapsed" : 76594,
		"subject" : "5ed67a8273beeb09f3cd44fc",
		"responses" : "{\"Q0\":\"120\"}",
		"info" : 3
	},
	{
		"row" : 56,
		"rt" : 17603.5,
		"stimulus" : null,
		"button_pressed" : null,
		"trial_type" : "survey-text",
		"trial_index" : 3,
		"time_elapsed" : 94700,
		"subject" : "5ed67a8273beeb09f3cd44fc",
		"responses" : "{\"Q0\":\"120\"}",
		"info" : 10
	},
	{
		"row" : 57,
		"rt" : 20157.5,
		"stimulus" : 0,
		"button_pressed" : 0,
		"trial_type" : "html-button-response",
		"trial_index" : 0,
		"time_elapsed" : 20161,
		"subject" : "5ead68a50869fc3ed4190f39",
		"responses" : null,
		"info" : null
	},
	{
		"row" : 58,
		"rt" : 48771.6,
		"stimulus" : null,
		"button_pressed" : null,
		"trial_type" : "survey-text",
		"trial_index" : 1,
		"time_elapsed" : 68936,
		"subject" : "5ead68a50869fc3ed4190f39",
		"responses" : "{\"Q0\":\"1000\"}",
		"info" : 1
	},
	{
		"row" : 59,
		"rt" : 19139.6,
		"stimulus" : null,
		"button_pressed" : null,
		"trial_type" : "survey-text",
		"trial_index" : 2,
		"time_elapsed" : 88577,
		"subject" : "5ead68a50869fc3ed4190f39",
		"responses" : "{\"Q0\":\"200\"}",
		"info" : 3
	},
	{
		"row" : 60,
		"rt" : 29605.7,
		"stimulus" : null,
		"button_pressed" : null,
		"trial_type" : "survey-text",
		"trial_index" : 3,
		"time_elapsed" : 118686,
		"subject" : "5ead68a50869fc3ed4190f39",
		"responses" : "{\"Q0\":\"150\"}",
		"info" : 10
	},
	{
		"row" : 61,
		"rt" : 23143.4,
		"stimulus" : 0,
		"button_pressed" : 0,
		"trial_type" : "html-button-response",
		"trial_index" : 0,
		"time_elapsed" : 23148,
		"subject" : "5dd6fd26a0f99f000d914736",
		"responses" : null,
		"info" : null
	},
	{
		"row" : 62,
		"rt" : 48792.9,
		"stimulus" : null,
		"button_pressed" : null,
		"trial_type" : "survey-text",
		"trial_index" : 1,
		"time_elapsed" : 71948,
		"subject" : "5dd6fd26a0f99f000d914736",
		"responses" : "{\"Q0\":\"300\"}",
		"info" : 1
	},
	{
		"row" : 63,
		"rt" : 26826.7,
		"stimulus" : null,
		"button_pressed" : null,
		"trial_type" : "survey-text",
		"trial_index" : 2,
		"time_elapsed" : 99282,
		"subject" : "5dd6fd26a0f99f000d914736",
		"responses" : "{\"Q0\":\"150\"}",
		"info" : 3
	},
	{
		"row" : 64,
		"rt" : 26396.7,
		"stimulus" : null,
		"button_pressed" : null,
		"trial_type" : "survey-text",
		"trial_index" : 3,
		"time_elapsed" : 126182,
		"subject" : "5dd6fd26a0f99f000d914736",
		"responses" : "{\"Q0\":\"130\"}",
		"info" : 10
	},
	{
		"row" : 65,
		"rt" : 5770.46,
		"stimulus" : 0,
		"button_pressed" : 0,
		"trial_type" : "html-button-response",
		"trial_index" : 0,
		"time_elapsed" : 5790,
		"subject" : "5caccbdeb2b891001c557968",
		"responses" : null,
		"info" : null
	},
	{
		"row" : 66,
		"rt" : 41791.6,
		"stimulus" : null,
		"button_pressed" : null,
		"trial_type" : "survey-text",
		"trial_index" : 1,
		"time_elapsed" : 47585,
		"subject" : "5caccbdeb2b891001c557968",
		"responses" : "{\"Q0\":\"150\"}",
		"info" : 1
	},
	{
		"row" : 67,
		"rt" : 21922.5,
		"stimulus" : null,
		"button_pressed" : null,
		"trial_type" : "survey-text",
		"trial_index" : 2,
		"time_elapsed" : 70011,
		"subject" : "5caccbdeb2b891001c557968",
		"responses" : "{\"Q0\":\"150\"}",
		"info" : 3
	},
	{
		"row" : 68,
		"rt" : 9753.76,
		"stimulus" : null,
		"button_pressed" : null,
		"trial_type" : "survey-text",
		"trial_index" : 3,
		"time_elapsed" : 80268,
		"subject" : "5caccbdeb2b891001c557968",
		"responses" : "{\"Q0\":\"120\"}",
		"info" : 10
	},
	{
		"row" : 69,
		"rt" : 3923.52,
		"stimulus" : 0,
		"button_pressed" : 0,
		"trial_type" : "html-button-response",
		"trial_index" : 0,
		"time_elapsed" : 3957,
		"subject" : "5f205909d2fcf70e5ac2527a",
		"responses" : null,
		"info" : null
	},
	{
		"row" : 70,
		"rt" : 86096.5,
		"stimulus" : null,
		"button_pressed" : null,
		"trial_type" : "survey-text",
		"trial_index" : 1,
		"time_elapsed" : 90058,
		"subject" : "5f205909d2fcf70e5ac2527a",
		"responses" : "{\"Q0\":\"150\"}",
		"info" : 1
	},
	{
		"row" : 71,
		"rt" : 40736.8,
		"stimulus" : null,
		"button_pressed" : null,
		"trial_type" : "survey-text",
		"trial_index" : 2,
		"time_elapsed" : 131299,
		"subject" : "5f205909d2fcf70e5ac2527a",
		"responses" : "{\"Q0\":\"150\"}",
		"info" : 3
	},
	{
		"row" : 72,
		"rt" : 26781.5,
		"stimulus" : null,
		"button_pressed" : null,
		"trial_type" : "survey-text",
		"trial_index" : 3,
		"time_elapsed" : 158583,
		"subject" : "5f205909d2fcf70e5ac2527a",
		"responses" : "{\"Q0\":\"150\"}",
		"info" : 10
	},
	{
		"row" : 73,
		"rt" : 1909.31,
		"stimulus" : 0,
		"button_pressed" : 0,
		"trial_type" : "html-button-response",
		"trial_index" : 0,
		"time_elapsed" : 1924,
		"subject" : "5e9d1798a5f66424e452baa8",
		"responses" : null,
		"info" : null
	},
	{
		"row" : 74,
		"rt" : 44672.1,
		"stimulus" : null,
		"button_pressed" : null,
		"trial_type" : "survey-text",
		"trial_index" : 1,
		"time_elapsed" : 46609,
		"subject" : "5e9d1798a5f66424e452baa8",
		"responses" : "{\"Q0\":\"1000\"}",
		"info" : 1
	},
	{
		"row" : 75,
		"rt" : 14025.3,
		"stimulus" : null,
		"button_pressed" : null,
		"trial_type" : "survey-text",
		"trial_index" : 2,
		"time_elapsed" : 61147,
		"subject" : "5e9d1798a5f66424e452baa8",
		"responses" : "{\"Q0\":\"1000\"}",
		"info" : 3
	},
	{
		"row" : 76,
		"rt" : 25522.4,
		"stimulus" : null,
		"button_pressed" : null,
		"trial_type" : "survey-text",
		"trial_index" : 3,
		"time_elapsed" : 87185,
		"subject" : "5e9d1798a5f66424e452baa8",
		"responses" : "{\"Q0\":\"1000\"}",
		"info" : 10
	},
	{
		"row" : 77,
		"rt" : 44096.7,
		"stimulus" : 0,
		"button_pressed" : 0,
		"trial_type" : "html-button-response",
		"trial_index" : 0,
		"time_elapsed" : 44132,
		"subject" : "5ec55247144f4f4fc6620d80",
		"responses" : null,
		"info" : null
	},
	{
		"row" : 78,
		"rt" : 40198.9,
		"stimulus" : null,
		"button_pressed" : null,
		"trial_type" : "survey-text",
		"trial_index" : 1,
		"time_elapsed" : 84337,
		"subject" : "5ec55247144f4f4fc6620d80",
		"responses" : "{\"Q0\":\"103\"}",
		"info" : 1
	},
	{
		"row" : 79,
		"rt" : 37535,
		"stimulus" : null,
		"button_pressed" : null,
		"trial_type" : "survey-text",
		"trial_index" : 2,
		"time_elapsed" : 122380,
		"subject" : "5ec55247144f4f4fc6620d80",
		"responses" : "{\"Q0\":\"70\"}",
		"info" : 3
	},
	{
		"row" : 80,
		"rt" : 110160,
		"stimulus" : null,
		"button_pressed" : null,
		"trial_type" : "survey-text",
		"trial_index" : 3,
		"time_elapsed" : 233043,
		"subject" : "5ec55247144f4f4fc6620d80",
		"responses" : "{\"Q0\":\"60\"}",
		"info" : 10
	},
	{
		"row" : 81,
		"rt" : 3762.66,
		"stimulus" : 0,
		"button_pressed" : 0,
		"trial_type" : "html-button-response",
		"trial_index" : 0,
		"time_elapsed" : 3767,
		"subject" : "5f37d53e5762090478699866",
		"responses" : null,
		"info" : null
	},
	{
		"row" : 82,
		"rt" : 64389.9,
		"stimulus" : null,
		"button_pressed" : null,
		"trial_type" : "survey-text",
		"trial_index" : 1,
		"time_elapsed" : 68161,
		"subject" : "5f37d53e5762090478699866",
		"responses" : "{\"Q0\":\"103\"}",
		"info" : 1
	},
	{
		"row" : 83,
		"rt" : 39851.4,
		"stimulus" : null,
		"button_pressed" : null,
		"trial_type" : "survey-text",
		"trial_index" : 2,
		"time_elapsed" : 108517,
		"subject" : "5f37d53e5762090478699866",
		"responses" : "{\"Q0\":\"103\"}",
		"info" : 3
	},
	{
		"row" : 84,
		"rt" : 20099.9,
		"stimulus" : null,
		"button_pressed" : null,
		"trial_type" : "survey-text",
		"trial_index" : 3,
		"time_elapsed" : 129123,
		"subject" : "5f37d53e5762090478699866",
		"responses" : "{\"Q0\":\"103\"}",
		"info" : 10
	},
	{
		"row" : 85,
		"rt" : 15965.3,
		"stimulus" : 0,
		"button_pressed" : 0,
		"trial_type" : "html-button-response",
		"trial_index" : 0,
		"time_elapsed" : 15973,
		"subject" : "5e725c8891be1c1966406aec",
		"responses" : null,
		"info" : null
	},
	{
		"row" : 86,
		"rt" : 102207,
		"stimulus" : null,
		"button_pressed" : null,
		"trial_type" : "survey-text",
		"trial_index" : 1,
		"time_elapsed" : 118195,
		"subject" : "5e725c8891be1c1966406aec",
		"responses" : "{\"Q0\":\"200\"}",
		"info" : 1
	},
	{
		"row" : 87,
		"rt" : 30455.1,
		"stimulus" : null,
		"button_pressed" : null,
		"trial_type" : "survey-text",
		"trial_index" : 2,
		"time_elapsed" : 149153,
		"subject" : "5e725c8891be1c1966406aec",
		"responses" : "{\"Q0\":\"103\"}",
		"info" : 3
	},
	{
		"row" : 88,
		"rt" : 6719.53,
		"stimulus" : null,
		"button_pressed" : null,
		"trial_type" : "survey-text",
		"trial_index" : 3,
		"time_elapsed" : 156380,
		"subject" : "5e725c8891be1c1966406aec",
		"responses" : "{\"Q0\":\"103\"}",
		"info" : 10
	},
	{
		"row" : 89,
		"rt" : 41913.2,
		"stimulus" : 0,
		"button_pressed" : 0,
		"trial_type" : "html-button-response",
		"trial_index" : 0,
		"time_elapsed" : 41922,
		"subject" : "5f1abcf92171f82034b6093a",
		"responses" : null,
		"info" : null
	},
	{
		"row" : 90,
		"rt" : 94394.2,
		"stimulus" : null,
		"button_pressed" : null,
		"trial_type" : "survey-text",
		"trial_index" : 1,
		"time_elapsed" : 136326,
		"subject" : "5f1abcf92171f82034b6093a",
		"responses" : "{\"Q0\":\"200\"}",
		"info" : 1
	},
	{
		"row" : 91,
		"rt" : 40383.9,
		"stimulus" : null,
		"button_pressed" : null,
		"trial_type" : "survey-text",
		"trial_index" : 2,
		"time_elapsed" : 177220,
		"subject" : "5f1abcf92171f82034b6093a",
		"responses" : "{\"Q0\":\"150\"}",
		"info" : 3
	},
	{
		"row" : 92,
		"rt" : 23594.2,
		"stimulus" : null,
		"button_pressed" : null,
		"trial_type" : "survey-text",
		"trial_index" : 3,
		"time_elapsed" : 201324,
		"subject" : "5f1abcf92171f82034b6093a",
		"responses" : "{\"Q0\":\"150\"}",
		"info" : 10
	},
	{
		"row" : 93,
		"rt" : 2096.59,
		"stimulus" : 0,
		"button_pressed" : 0,
		"trial_type" : "html-button-response",
		"trial_index" : 0,
		"time_elapsed" : 2102,
		"subject" : "5e8b4b875ac5d50009845a7b",
		"responses" : null,
		"info" : null
	},
	{
		"row" : 94,
		"rt" : 89945.2,
		"stimulus" : null,
		"button_pressed" : null,
		"trial_type" : "survey-text",
		"trial_index" : 1,
		"time_elapsed" : 92060,
		"subject" : "5e8b4b875ac5d50009845a7b",
		"responses" : "{\"Q0\":\"250\"}",
		"info" : 1
	},
	{
		"row" : 95,
		"rt" : 50748.9,
		"stimulus" : null,
		"button_pressed" : null,
		"trial_type" : "survey-text",
		"trial_index" : 2,
		"time_elapsed" : 143317,
		"subject" : "5e8b4b875ac5d50009845a7b",
		"responses" : "{\"Q0\":\"150\"}",
		"info" : 3
	},
	{
		"row" : 96,
		"rt" : 48068.1,
		"stimulus" : null,
		"button_pressed" : null,
		"trial_type" : "survey-text",
		"trial_index" : 3,
		"time_elapsed" : 191893,
		"subject" : "5e8b4b875ac5d50009845a7b",
		"responses" : "{\"Q0\":\"150\"}",
		"info" : 10
	},
	{
		"row" : 97,
		"rt" : 53339.2,
		"stimulus" : 0,
		"button_pressed" : 0,
		"trial_type" : "html-button-response",
		"trial_index" : 0,
		"time_elapsed" : 53398,
		"subject" : "5f015b4f1eb1e52b14d0f220",
		"responses" : null,
		"info" : null
	},
	{
		"row" : 98,
		"rt" : 102100,
		"stimulus" : null,
		"button_pressed" : null,
		"trial_type" : "survey-text",
		"trial_index" : 1,
		"time_elapsed" : 155509,
		"subject" : "5f015b4f1eb1e52b14d0f220",
		"responses" : "{\"Q0\":\"150\"}",
		"info" : 1
	},
	{
		"row" : 99,
		"rt" : 30413.8,
		"stimulus" : null,
		"button_pressed" : null,
		"trial_type" : "survey-text",
		"trial_index" : 2,
		"time_elapsed" : 186428,
		"subject" : "5f015b4f1eb1e52b14d0f220",
		"responses" : "{\"Q0\":\"150\"}",
		"info" : 3
	},
	{
		"row" : 100,
		"rt" : 10453.4,
		"stimulus" : null,
		"button_pressed" : null,
		"trial_type" : "survey-text",
		"trial_index" : 3,
		"time_elapsed" : 197388,
		"subject" : "5f015b4f1eb1e52b14d0f220",
		"responses" : "{\"Q0\":\"150\"}",
		"info" : 10
	},
	{
		"row" : 101,
		"rt" : 128835,
		"stimulus" : 0,
		"button_pressed" : 0,
		"trial_type" : "html-button-response",
		"trial_index" : 0,
		"time_elapsed" : 128841,
		"subject" : "5e385f70b0e66106bb2b7b1e",
		"responses" : null,
		"info" : null
	},
	{
		"row" : 102,
		"rt" : 35348.9,
		"stimulus" : null,
		"button_pressed" : null,
		"trial_type" : "survey-text",
		"trial_index" : 1,
		"time_elapsed" : 164193,
		"subject" : "5e385f70b0e66106bb2b7b1e",
		"responses" : "{\"Q0\":\"200\"}",
		"info" : 1
	},
	{
		"row" : 103,
		"rt" : 29751.9,
		"stimulus" : null,
		"button_pressed" : null,
		"trial_type" : "survey-text",
		"trial_index" : 2,
		"time_elapsed" : 194448,
		"subject" : "5e385f70b0e66106bb2b7b1e",
		"responses" : "{\"Q0\":\"200\"}",
		"info" : 3
	},
	{
		"row" : 104,
		"rt" : 17794.7,
		"stimulus" : null,
		"button_pressed" : null,
		"trial_type" : "survey-text",
		"trial_index" : 3,
		"time_elapsed" : 212745,
		"subject" : "5e385f70b0e66106bb2b7b1e",
		"responses" : "{\"Q0\":\"200\"}",
		"info" : 10
	},
	{
		"row" : 105,
		"rt" : 4036.26,
		"stimulus" : 0,
		"button_pressed" : 0,
		"trial_type" : "html-button-response",
		"trial_index" : 0,
		"time_elapsed" : 4041,
		"subject" : "5c2e7158a0852500014ceb0b",
		"responses" : null,
		"info" : null
	},
	{
		"row" : 106,
		"rt" : 35844.9,
		"stimulus" : null,
		"button_pressed" : null,
		"trial_type" : "survey-text",
		"trial_index" : 1,
		"time_elapsed" : 39891,
		"subject" : "5c2e7158a0852500014ceb0b",
		"responses" : "{\"Q0\":\"200\"}",
		"info" : 1
	},
	{
		"row" : 107,
		"rt" : 15840.4,
		"stimulus" : null,
		"button_pressed" : null,
		"trial_type" : "survey-text",
		"trial_index" : 2,
		"time_elapsed" : 56242,
		"subject" : "5c2e7158a0852500014ceb0b",
		"responses" : "{\"Q0\":\"200\"}",
		"info" : 3
	},
	{
		"row" : 108,
		"rt" : 12987.9,
		"stimulus" : null,
		"button_pressed" : null,
		"trial_type" : "survey-text",
		"trial_index" : 3,
		"time_elapsed" : 69741,
		"subject" : "5c2e7158a0852500014ceb0b",
		"responses" : "{\"Q0\":\"200\"}",
		"info" : 10
	},
	{
		"row" : 109,
		"rt" : 26634.2,
		"stimulus" : 0,
		"button_pressed" : 0,
		"trial_type" : "html-button-response",
		"trial_index" : 0,
		"time_elapsed" : 26638,
		"subject" : "5f35688b8ad4af51619fa589",
		"responses" : null,
		"info" : null
	},
	{
		"row" : 110,
		"rt" : 630252,
		"stimulus" : null,
		"button_pressed" : null,
		"trial_type" : "survey-text",
		"trial_index" : 1,
		"time_elapsed" : 656893,
		"subject" : "5f35688b8ad4af51619fa589",
		"responses" : "{\"Q0\":\"103\"}",
		"info" : 1
	},
	{
		"row" : 111,
		"rt" : 281341,
		"stimulus" : null,
		"button_pressed" : null,
		"trial_type" : "survey-text",
		"trial_index" : 2,
		"time_elapsed" : 938739,
		"subject" : "5f35688b8ad4af51619fa589",
		"responses" : "{\"Q0\":\"103\"}",
		"info" : 3
	},
	{
		"row" : 112,
		"rt" : 23451.2,
		"stimulus" : null,
		"button_pressed" : null,
		"trial_type" : "survey-text",
		"trial_index" : 3,
		"time_elapsed" : 962692,
		"subject" : "5f35688b8ad4af51619fa589",
		"responses" : "{\"Q0\":\"103\"}",
		"info" : 10
	},
	{
		"row" : 113,
		"rt" : 12355.7,
		"stimulus" : 0,
		"button_pressed" : 0,
		"trial_type" : "html-button-response",
		"trial_index" : 0,
		"time_elapsed" : 12359,
		"subject" : "5ef85dea50dc6b5a707c9b2e",
		"responses" : null,
		"info" : null
	},
	{
		"row" : 114,
		"rt" : 60085.4,
		"stimulus" : null,
		"button_pressed" : null,
		"trial_type" : "survey-text",
		"trial_index" : 1,
		"time_elapsed" : 72449,
		"subject" : "5ef85dea50dc6b5a707c9b2e",
		"responses" : "{\"Q0\":\"150\"}",
		"info" : 1
	},
	{
		"row" : 115,
		"rt" : 23231.5,
		"stimulus" : null,
		"button_pressed" : null,
		"trial_type" : "survey-text",
		"trial_index" : 2,
		"time_elapsed" : 96191,
		"subject" : "5ef85dea50dc6b5a707c9b2e",
		"responses" : "{\"Q0\":\"120\"}",
		"info" : 3
	},
	{
		"row" : 116,
		"rt" : 14307.5,
		"stimulus" : null,
		"button_pressed" : null,
		"trial_type" : "survey-text",
		"trial_index" : 3,
		"time_elapsed" : 111007,
		"subject" : "5ef85dea50dc6b5a707c9b2e",
		"responses" : "{\"Q0\":\"105\"}",
		"info" : 10
	},
	{
		"row" : 117,
		"rt" : 3137.46,
		"stimulus" : 0,
		"button_pressed" : 0,
		"trial_type" : "html-button-response",
		"trial_index" : 0,
		"time_elapsed" : 3153,
		"subject" : "5d1cbd87b5087400185792a4",
		"responses" : null,
		"info" : null
	},
	{
		"row" : 118,
		"rt" : 92877.8,
		"stimulus" : null,
		"button_pressed" : null,
		"trial_type" : "survey-text",
		"trial_index" : 1,
		"time_elapsed" : 96034,
		"subject" : "5d1cbd87b5087400185792a4",
		"responses" : "{\"Q0\":\"500\"}",
		"info" : 1
	},
	{
		"row" : 119,
		"rt" : 12279.9,
		"stimulus" : null,
		"button_pressed" : null,
		"trial_type" : "survey-text",
		"trial_index" : 2,
		"time_elapsed" : 108816,
		"subject" : "5d1cbd87b5087400185792a4",
		"responses" : "{\"Q0\":\"200\"}",
		"info" : 3
	},
	{
		"row" : 120,
		"rt" : 27497.9,
		"stimulus" : null,
		"button_pressed" : null,
		"trial_type" : "survey-text",
		"trial_index" : 3,
		"time_elapsed" : 136816,
		"subject" : "5d1cbd87b5087400185792a4",
		"responses" : "{\"Q0\":\"110\"}",
		"info" : 10
	},
	{
		"row" : 121,
		"rt" : 414401,
		"stimulus" : 0,
		"button_pressed" : 0,
		"trial_type" : "html-button-response",
		"trial_index" : 0,
		"time_elapsed" : 414408,
		"subject" : "5a05b4e5728b1b0001ad8eee",
		"responses" : null,
		"info" : null
	},
	{
		"row" : 122,
		"rt" : 31248.1,
		"stimulus" : null,
		"button_pressed" : null,
		"trial_type" : "survey-text",
		"trial_index" : 1,
		"time_elapsed" : 445662,
		"subject" : "5a05b4e5728b1b0001ad8eee",
		"responses" : "{\"Q0\":\"300\"}",
		"info" : 1
	},
	{
		"row" : 123,
		"rt" : 9098.84,
		"stimulus" : null,
		"button_pressed" : null,
		"trial_type" : "survey-text",
		"trial_index" : 2,
		"time_elapsed" : 455271,
		"subject" : "5a05b4e5728b1b0001ad8eee",
		"responses" : "{\"Q0\":\"200\"}",
		"info" : 3
	},
	{
		"row" : 124,
		"rt" : 6485.96,
		"stimulus" : null,
		"button_pressed" : null,
		"trial_type" : "survey-text",
		"trial_index" : 3,
		"time_elapsed" : 462266,
		"subject" : "5a05b4e5728b1b0001ad8eee",
		"responses" : "{\"Q0\":\"150\"}",
		"info" : 10
	},
	{
		"row" : 125,
		"rt" : 16724.1,
		"stimulus" : 0,
		"button_pressed" : 0,
		"trial_type" : "html-button-response",
		"trial_index" : 0,
		"time_elapsed" : 16729,
		"subject" : "5f0af097e7d15b3bf7734642",
		"responses" : null,
		"info" : null
	},
	{
		"row" : 126,
		"rt" : 57756.1,
		"stimulus" : null,
		"button_pressed" : null,
		"trial_type" : "survey-text",
		"trial_index" : 1,
		"time_elapsed" : 74490,
		"subject" : "5f0af097e7d15b3bf7734642",
		"responses" : "{\"Q0\":\"200\"}",
		"info" : 1
	},
	{
		"row" : 127,
		"rt" : 16842.1,
		"stimulus" : null,
		"button_pressed" : null,
		"trial_type" : "survey-text",
		"trial_index" : 2,
		"time_elapsed" : 91836,
		"subject" : "5f0af097e7d15b3bf7734642",
		"responses" : "{\"Q0\":\"150\"}",
		"info" : 3
	},
	{
		"row" : 128,
		"rt" : 15283.1,
		"stimulus" : null,
		"button_pressed" : null,
		"trial_type" : "survey-text",
		"trial_index" : 3,
		"time_elapsed" : 107623,
		"subject" : "5f0af097e7d15b3bf7734642",
		"responses" : "{\"Q0\":\"110\"}",
		"info" : 10
	},
	{
		"row" : 129,
		"rt" : 24161.1,
		"stimulus" : 0,
		"button_pressed" : 0,
		"trial_type" : "html-button-response",
		"trial_index" : 0,
		"time_elapsed" : 24165,
		"subject" : "5eea8b729b444a1a0548fec2",
		"responses" : null,
		"info" : null
	},
	{
		"row" : 130,
		"rt" : 135892,
		"stimulus" : null,
		"button_pressed" : null,
		"trial_type" : "survey-text",
		"trial_index" : 1,
		"time_elapsed" : 160061,
		"subject" : "5eea8b729b444a1a0548fec2",
		"responses" : "{\"Q0\":\"170\"}",
		"info" : 1
	},
	{
		"row" : 131,
		"rt" : 29492.9,
		"stimulus" : null,
		"button_pressed" : null,
		"trial_type" : "survey-text",
		"trial_index" : 2,
		"time_elapsed" : 190063,
		"subject" : "5eea8b729b444a1a0548fec2",
		"responses" : "{\"Q0\":\"130\"}",
		"info" : 3
	},
	{
		"row" : 132,
		"rt" : 27759.6,
		"stimulus" : null,
		"button_pressed" : null,
		"trial_type" : "survey-text",
		"trial_index" : 3,
		"time_elapsed" : 218331,
		"subject" : "5eea8b729b444a1a0548fec2",
		"responses" : "{\"Q0\":\"120\"}",
		"info" : 10
	},
	{
		"row" : 133,
		"rt" : 4072.17,
		"stimulus" : 0,
		"button_pressed" : 0,
		"trial_type" : "html-button-response",
		"trial_index" : 0,
		"time_elapsed" : 4076,
		"subject" : "5eab31abeb3ceb0f745319b8",
		"responses" : null,
		"info" : null
	},
	{
		"row" : 134,
		"rt" : 74185.6,
		"stimulus" : null,
		"button_pressed" : null,
		"trial_type" : "survey-text",
		"trial_index" : 1,
		"time_elapsed" : 78265,
		"subject" : "5eab31abeb3ceb0f745319b8",
		"responses" : "{\"Q0\":\"103\"}",
		"info" : 1
	},
	{
		"row" : 135,
		"rt" : 17591,
		"stimulus" : null,
		"button_pressed" : null,
		"trial_type" : "survey-text",
		"trial_index" : 2,
		"time_elapsed" : 96359,
		"subject" : "5eab31abeb3ceb0f745319b8",
		"responses" : "{\"Q0\":\"103\"}",
		"info" : 3
	},
	{
		"row" : 136,
		"rt" : 24606.9,
		"stimulus" : null,
		"button_pressed" : null,
		"trial_type" : "survey-text",
		"trial_index" : 3,
		"time_elapsed" : 121469,
		"subject" : "5eab31abeb3ceb0f745319b8",
		"responses" : "{\"Q0\":\"103\"}",
		"info" : 10
	}
]
