[
	{
		"row" : 1,
		"rt" : 30341.4,
		"stimulus" : 0,
		"button_pressed" : 0,
		"trial_type" : "html-button-response",
		"trial_index" : 0,
		"time_elapsed" : 30349,
		"subject" : "yqtgtq4wqseobwm",
		"responses" : null,
		"info" : null
	},
	{
		"row" : 2,
		"rt" : 2814.43,
		"stimulus" : null,
		"button_pressed" : null,
		"trial_type" : "survey-text",
		"trial_index" : 1,
		"time_elapsed" : 33174,
		"subject" : "yqtgtq4wqseobwm",
		"responses" : "{\"Q0\":\"145\"}",
		"info" : 1
	},
	{
		"row" : 3,
		"rt" : 1069.9,
		"stimulus" : null,
		"button_pressed" : null,
		"trial_type" : "survey-text",
		"trial_index" : 2,
		"time_elapsed" : 34748,
		"subject" : "yqtgtq4wqseobwm",
		"responses" : "{\"Q0\":\"134\"}",
		"info" : 3
	},
	{
		"row" : 4,
		"rt" : 1062.22,
		"stimulus" : null,
		"button_pressed" : null,
		"trial_type" : "survey-text",
		"trial_index" : 3,
		"time_elapsed" : 36317,
		"subject" : "yqtgtq4wqseobwm",
		"responses" : "{\"Q0\":\"123\"}",
		"info" : 10
	},
	{
		"row" : 5,
		"rt" : 2598.21,
		"stimulus" : 0,
		"button_pressed" : 0,
		"trial_type" : "html-button-response",
		"trial_index" : 0,
		"time_elapsed" : 2605,
		"subject" : "e0t5vnef250hkogs2r57",
		"responses" : null,
		"info" : null
	},
	{
		"row" : 6,
		"rt" : 2406.38,
		"stimulus" : null,
		"button_pressed" : null,
		"trial_type" : "survey-text",
		"trial_index" : 1,
		"time_elapsed" : 5019,
		"subject" : "e0t5vnef250hkogs2r57",
		"responses" : "{\"Q0\":\"19\"}",
		"info" : null
	},
	{
		"row" : 7,
		"rt" : 4558.48,
		"stimulus" : null,
		"button_pressed" : null,
		"trial_type" : "survey-text",
		"trial_index" : 2,
		"time_elapsed" : 9583,
		"subject" : "e0t5vnef250hkogs2r57",
		"responses" : "{\"Q0\":\"273\"}",
		"info" : 1
	},
	{
		"row" : 8,
		"rt" : 3968.05,
		"stimulus" : null,
		"button_pressed" : null,
		"trial_type" : "survey-text",
		"trial_index" : 3,
		"time_elapsed" : 14060,
		"subject" : "e0t5vnef250hkogs2r57",
		"responses" : "{\"Q0\":\"213\"}",
		"info" : 3
	},
	{
		"row" : 9,
		"rt" : 2847.92,
		"stimulus" : null,
		"button_pressed" : null,
		"trial_type" : "survey-text",
		"trial_index" : 4,
		"time_elapsed" : 17417,
		"subject" : "e0t5vnef250hkogs2r57",
		"responses" : "{\"Q0\":\"135\"}",
		"info" : 10
	},
	{
		"row" : 10,
		"rt" : 1171.81,
		"stimulus" : 0,
		"button_pressed" : 0,
		"trial_type" : "html-button-response",
		"trial_index" : 0,
		"time_elapsed" : 1180,
		"subject" : "2tz00p7dremu5wqpltpd",
		"responses" : null,
		"info" : null
	},
	{
		"row" : 11,
		"rt" : 2698.95,
		"stimulus" : null,
		"button_pressed" : null,
		"trial_type" : "survey-text",
		"trial_index" : 1,
		"time_elapsed" : 3886,
		"subject" : "2tz00p7dremu5wqpltpd",
		"responses" : "{\"Q0\":\"19\"}",
		"info" : null
	},
	{
		"row" : 12,
		"rt" : 4005.98,
		"stimulus" : null,
		"button_pressed" : null,
		"trial_type" : "survey-text",
		"trial_index" : 2,
		"time_elapsed" : 7898,
		"subject" : "2tz00p7dremu5wqpltpd",
		"responses" : "{\"Q0\":\"256\"}",
		"info" : 1
	},
	{
		"row" : 13,
		"rt" : 2637.11,
		"stimulus" : null,
		"button_pressed" : null,
		"trial_type" : "survey-text",
		"trial_index" : 3,
		"time_elapsed" : 11043,
		"subject" : "2tz00p7dremu5wqpltpd",
		"responses" : "{\"Q0\":\"174\"}",
		"info" : 3
	},
	{
		"row" : 14,
		"rt" : 2439.71,
		"stimulus" : null,
		"button_pressed" : null,
		"trial_type" : "survey-text",
		"trial_index" : 4,
		"time_elapsed" : 13989,
		"subject" : "2tz00p7dremu5wqpltpd",
		"responses" : "{\"Q0\":\"116\"}",
		"info" : 10
	},
	{
		"row" : 15,
		"rt" : 2059.96,
		"stimulus" : 0,
		"button_pressed" : 0,
		"trial_type" : "html-button-response",
		"trial_index" : 0,
		"time_elapsed" : 2065,
		"subject" : "6y0w7ytbzz1sluny9gey",
		"responses" : null,
		"info" : null
	},
	{
		"row" : 16,
		"rt" : 2488,
		"stimulus" : null,
		"button_pressed" : null,
		"trial_type" : "survey-text",
		"trial_index" : 1,
		"time_elapsed" : 4558,
		"subject" : "6y0w7ytbzz1sluny9gey",
		"responses" : "{\"Q0\":\"19\"}",
		"info" : null
	},
	{
		"row" : 17,
		"rt" : 5881.72,
		"stimulus" : null,
		"button_pressed" : null,
		"trial_type" : "survey-text",
		"trial_index" : 2,
		"time_elapsed" : 10446,
		"subject" : "6y0w7ytbzz1sluny9gey",
		"responses" : "{\"Q0\":\"286\"}",
		"info" : 1
	},
	{
		"row" : 18,
		"rt" : 3256.66,
		"stimulus" : null,
		"button_pressed" : null,
		"trial_type" : "survey-text",
		"trial_index" : 3,
		"time_elapsed" : 14210,
		"subject" : "6y0w7ytbzz1sluny9gey",
		"responses" : "{\"Q0\":\"216\"}",
		"info" : 3
	},
	{
		"row" : 19,
		"rt" : 2218.58,
		"stimulus" : null,
		"button_pressed" : null,
		"trial_type" : "survey-text",
		"trial_index" : 4,
		"time_elapsed" : 16938,
		"subject" : "6y0w7ytbzz1sluny9gey",
		"responses" : "{\"Q0\":\"198\"}",
		"info" : 10
	},
	{
		"row" : 20,
		"rt" : 1331,
		"stimulus" : 0,
		"button_pressed" : 0,
		"trial_type" : "html-button-response",
		"trial_index" : 0,
		"time_elapsed" : 1335,
		"subject" : "104yn3ypug7obe5xu92g",
		"responses" : null,
		"info" : null
	},
	{
		"row" : 21,
		"rt" : 2308,
		"stimulus" : null,
		"button_pressed" : null,
		"trial_type" : "survey-text",
		"trial_index" : 1,
		"time_elapsed" : 3648,
		"subject" : "104yn3ypug7obe5xu92g",
		"responses" : "{\"Q0\":\"19\"}",
		"info" : null
	},
	{
		"row" : 22,
		"rt" : 6029,
		"stimulus" : null,
		"button_pressed" : null,
		"trial_type" : "survey-text",
		"trial_index" : 2,
		"time_elapsed" : 9681,
		"subject" : "104yn3ypug7obe5xu92g",
		"responses" : "{\"Q0\":\"235\"}",
		"info" : 1
	},
	{
		"row" : 23,
		"rt" : 4338,
		"stimulus" : null,
		"button_pressed" : null,
		"trial_type" : "survey-text",
		"trial_index" : 3,
		"time_elapsed" : 14528,
		"subject" : "104yn3ypug7obe5xu92g",
		"responses" : "{\"Q0\":\"195\"}",
		"info" : 3
	},
	{
		"row" : 24,
		"rt" : 4137,
		"stimulus" : null,
		"button_pressed" : null,
		"trial_type" : "survey-text",
		"trial_index" : 4,
		"time_elapsed" : 19175,
		"subject" : "104yn3ypug7obe5xu92g",
		"responses" : "{\"Q0\":\"134\"}",
		"info" : 10
	},
	{
		"row" : 25,
		"rt" : 1174,
		"stimulus" : 0,
		"button_pressed" : 0,
		"trial_type" : "html-button-response",
		"trial_index" : 0,
		"time_elapsed" : 1225,
		"subject" : "jkkjnlwoqacvg3yh2rq3",
		"responses" : null,
		"info" : null
	},
	{
		"row" : 26,
		"rt" : 2531,
		"stimulus" : null,
		"button_pressed" : null,
		"trial_type" : "survey-text",
		"trial_index" : 1,
		"time_elapsed" : 3860,
		"subject" : "jkkjnlwoqacvg3yh2rq3",
		"responses" : "{\"Q0\":\"19\"}",
		"info" : null
	},
	{
		"row" : 27,
		"rt" : 3435,
		"stimulus" : null,
		"button_pressed" : null,
		"trial_type" : "survey-text",
		"trial_index" : 2,
		"time_elapsed" : 7298,
		"subject" : "jkkjnlwoqacvg3yh2rq3",
		"responses" : "{\"Q0\":\"189\"}",
		"info" : 1
	},
	{
		"row" : 28,
		"rt" : 3002,
		"stimulus" : null,
		"button_pressed" : null,
		"trial_type" : "survey-text",
		"trial_index" : 3,
		"time_elapsed" : 10806,
		"subject" : "jkkjnlwoqacvg3yh2rq3",
		"responses" : "{\"Q0\":\"156\"}",
		"info" : 3
	},
	{
		"row" : 29,
		"rt" : 1681,
		"stimulus" : null,
		"button_pressed" : null,
		"trial_type" : "survey-text",
		"trial_index" : 4,
		"time_elapsed" : 12995,
		"subject" : "jkkjnlwoqacvg3yh2rq3",
		"responses" : "{\"Q0\":\"116\"}",
		"info" : 10
	}
]
